Folder: webapp.greencollar.ai/src/addons

File: sample-parse.csv
***Scan Config Information***,,,,,,,***Reference Scan Information***,,,,,,,,
Scan Config Name:,GCACFG,,,,,,Scan Config Name:,Built-in Factory Reference,,,,,,
Scan Config Type:,Slew,Num Section:,1,,,,Scan Config Type:,Slew,Num Section:,1,,,,,
Section Config Type:,Hadamard,,,,,,Section Config Type:,Column,,,,,,,
Start Wavelength (nm):,950,,,,,,Start Wavelength (nm):,900.0,,,,,,
End Wavelength (nm):,1650,,,,,,End Wavelength (nm):,1700.0,,,,,,
Pattern Width (nm):,7.03,,,,,,Pattern Width (nm):,7.03,,,,,,,
Exposure (ms):,0.635,,,,,,Exposure (ms):,0.635,,,,,,,
Digital Resolution:,300,,,,,,Digital Resolution:,228,,,,,,,
Num Repeats:,16,,,,,,Num Repeats:,30,,,,,,,
PGA Gain:,64,,,,,,PGA Gain:,64,,,,,,
System Temp (C):,32.99,,,,,,System Temp (C):,22.64,,,,,,,
Humidity (%):,65.6,,,,,,Humidity (%):,32.0,,,,,,
Battery Capacity (%):,97,,,,,,Lamp Indicator:,845,,,,,,,
Lamp ADC:,3053,3075,848,837,,,Data Date-Time:,23/1/6T19:6:26
Data Date-Time:,24/10/4T11:51:48,,,,,,,,,,,,,,
Total Measurement Time in sec:,7.346,,,,,,,,,,,,,
***General Information***,,,,,,,***Calibration Coefficients***,,,,,,,,
Model Name:,NIR-X-XX,,,,,,Shift Vector Coefficients:,-3.77964,0.0383584,-9.42081e-05,,,,,
Serial Number:,B50R085,95UB123GC0VB50R085,,,,,Pixel to Wavelength Coefficients:,1759.09,-0.923647,-0.000241011,,,,,
APP Version:,2.18.18,,,,,,,,,,,,,
TIVA Version:,2.6.3,,,,,,***Lamp Usage * **,,,,,,,,
UUID:,DE:67:0C:88:67:45:81:21,,,,,,Total Time(HH:MM:SS):,5hr 11min 55sec ,,,,,,,
Main Board Version:,F,,,,,,***Device/Error Status***,,,,,,,,
Detector Board Version:,C,,,,,,Device Status:,0x00000031,,,,,,
,,,,,,,Error status:,0x00000000,Error Code:,0x0000000000000000000000000000000000000000,,,,,
,,,,,,,,,Error Details:,Not Found,,,,,
***Scan Data***,,,,,,,,,,,,,,,
Wavelength (nm),Absorbance (AU),Reference Signal (unitless),Sample Signal (unitless)
950.646,1.696816,237718.0,4778
954.477,1.70895,249516.0,4877
957.028,1.71035,257202.0,5011
959.578,1.71669,265098.0,5090
962.125,1.71872,272987.0,5217
964.671,1.72317,281193.0,5319
967.215,1.72326,289549.0,5476
969.757,1.72977,298054.0,5553
972.297,1.72915,306847.0,5725
974.835,1.732633,315912.0,5847
977.371,1.73559,325249.0,5979
979.905,1.73521,334909.0,6162
982.437,1.74273,344746.0,6234
984.968,1.73943,354759.0,6464
988.76,1.74293,369686.0,6682
991.285,1.73997,379651.0,6909
993.809,1.74136,389633.0,7068
996.33,1.746218,399201.0,7161
998.85,1.75072,409103.0,7263
1001.37,1.7493,419338.0,7469
1003.88,1.75279,428377.0,7569
1006.4,1.74782,437271.0,7815
1008.91,1.74286,446021.0,8063
1011.42,1.74659,454617.0,8148
1013.93,1.74153,462578.0,8388
1016.43,1.74142,469904.0,8523
1018.94,1.73672,475926.0,8726
1022.69,1.73716,484428.0,8873
1025.19,1.739099,489394.0,8924
1027.69,1.73789,492461.0,9005
1030.18,1.73917,495009.0,9025
1032.68,1.73902,497039.0,9065
1035.17,1.7368,498484.0,9138
1037.66,1.74048,499646.0,9082
1040.15,1.735874,500525.0,9195
1042.63,1.73519,501039.0,9219
1045.12,1.73112,501214.0,9309
1047.6,1.73355,501053.0,9254
1050.08,1.73111,500446.0,9295
1052.56,1.72903,499394.0,9320
1055.03,1.73032,498569.0,9277
1058.74,1.7294,496929.0,9266
1061.22,1.72888,495692.0,9254
1063.69,1.72868,494445.0,9235
1066.15,1.72713,492946.0,9240
1068.62,1.7257,491696.0,9247
1071.08,1.72504,490694.0,9242
1073.54,1.72949,489944.0,9134
1076,1.72691,489125.0,9173
1078.46,1.72749,488236.0,9144
1080.92,1.72407,487586.0,9204
1083.37,1.72395,487176.0,9199
1085.83,1.72432,487227.0,9192
1088.28,1.72395,487024.0,9196
1091.95,1.72612,487014.0,9150
1094.39,1.72515,487895.0,9187
1096.84,1.72086,488146.0,9283
1099.28,1.720638,488368.0,9292
1101.72,1.71932,488562.0,9324
1104.16,1.72048,489131.0,9310
1106.59,1.72098,489698.0,9310
1109.03,1.71794,490671.0,9394
1111.46,1.72006,491861.0,9371
1113.89,1.71669,493266.0,9471
1116.32,1.71763,494393.0,9472
1118.74,1.71453,495386.0,9559
1121.17,1.71606,496246.0,9542
1123.59,1.71609,497844.0,9572
1127.22,1.71248,500271.0,9699
1129.64,1.71107,501838.0,9761
1132.05,1.71286,503345.0,9750
1134.47,1.71253,505124.0,9792
1136.88,1.7121,506901.0,9836
1139.29,1.714,508596.0,9826
1141.69,1.71455,510380.0,9848
1144.1,1.71649,512254.0,9840
1146.5,1.71262,514310.0,9968
1148.91,1.71068,516384.0,10053
1151.31,1.711095,518475.0,10084
1153.71,1.70994,520634.0,10153
1156.1,1.70809,523023.0,10243
1159.69,1.70911,527007.0,10297
1162.08,1.70661,529734.0,10410
1164.47,1.70667,532309.0,10459
1166.86,1.70678,534880.0,10507
1169.25,1.7046,537824.0,10618
1171.63,1.70561,541012.0,10656
1174.01,1.704788,544445.0,10744
1176.39,1.70516,547754.0,10800
1178.77,1.70807,551030.0,10792
1181.15,1.70618,554272.0,10903
1183.52,1.70567,558145.0,10992
1185.89,1.70748,561852.0,11019
1188.26,1.70761,565391.0,11085
1191.81,1.70919,571690.0,11168
1194.18,1.70834,575941.0,11273
1196.54,1.7072,580245.0,11387
1198.91,1.70861,584532.0,11434
1201.27,1.709489,589097.0,11500
1203.62,1.71112,593939.0,11551
1205.98,1.70997,598873.0,11678
1208.33,1.70703,603496.0,11848
1210.68,1.70804,607809.0,11905
1213.03,1.70801,613076.0,12009
1215.38,1.70731,618204.0,12129
1217.73,1.70805,623193.0,12206
1220.07,1.70933,628420.0,12272
1222.42,1.71035,633642.0,12345
1225.93,1.71003,641680.0,12511
1228.26,1.70992,647262.0,12623
1230.6,1.70851,652781.0,12772
1232.93,1.70887,658236.0,12868
1235.26,1.70933,663700.0,12961
1237.59,1.71135,669103.0,13006
1239.92,1.70982,674443.0,13156
1242.25,1.71099,680984.0,13248
1244.57,1.70926,687659.0,13431
1246.89,1.70821,694471.0,13597
1249.21,1.70988,701039.0,13673
1251.53,1.707723,707364.0,13865
1253.85,1.70727,713718.0,14004
1257.32,1.70546,723628.0,14258
1259.63,1.70701,729995.0,14332
1261.94,1.70839,735996.0,14404
1264.25,1.70837,741988.0,14522
1266.55,1.709205,747869.0,14609
1268.86,1.70725,753640.0,14788
1271.16,1.70794,759680.0,14883
1273.46,1.70806,765563.0,14994
1275.76,1.70646,771291.0,15162
1278.05,1.7078,776835.0,15224
1280.35,1.70803,782196.0,15321
1282.64,1.70693,787147.0,15457
1284.93,1.70629,792038.0,15576
1288.36,1.70606,799389.0,15729
1290.65,1.70735,804422.0,15781
1292.93,1.70351,808705.0,16006
1295.21,1.70428,812834.0,16059
1297.49,1.70532,816809.0,16099
1299.77,1.705576,821501.0,16182
1302.05,1.70416,825805.0,16320
1304.32,1.70472,829721.0,16376
1306.59,1.70333,833168.0,16497
1308.86,1.70136,836145.0,16631
1311.13,1.70161,839137.0,16681
1313.4,1.70216,842368.0,16724
1315.66,1.70457,845837.0,16700
1317.92,1.70181,848439.0,16858
1321.31,1.70414,851632.0,16831
1323.57,1.70376,853557.0,16884
1325.82,1.70403,855514.0,16912
1328.08,1.70577,857513.0,16884
1330.33,1.70588,859510.0,16919
1332.58,1.70596,860490.0,16935
1334.83,1.70794,861519.0,16878
1337.07,1.70705,862597.0,16934
1339.32,1.710794,863903.0,16814
1341.56,1.71321,865059.0,16743
1343.8,1.7125,866066.0,16790
1346.04,1.71301,866259.0,16774
1348.27,1.71732,866389.0,16611
1351.63,1.719708,866137.0,16515
1353.86,1.72211,865500.0,16412
1356.09,1.7246,865343.0,16315
1358.31,1.72853,865187.0,16165
1360.54,1.72958,864702.0,16117
1362.76,1.7305,864010.0,16070
1364.98,1.73481,863111.0,15895
1367.2,1.73609,863265.0,15851
1369.42,1.73767,863248.0,15793
1371.64,1.738569,863063.0,15757
1373.85,1.737036,861714.0,15788
1376.07,1.73827,859953.0,15711
1378.28,1.73931,857780.0,15634
1380.48,1.73867,855262.0,15611
1383.79,1.74125,851486.0,15450
1386,1.74069,848964.0,15424
1388.2,1.74565,845521.0,15187
1390.4,1.74612,842869.0,15123
1392.6,1.74949,841007.0,14973
1394.79,1.74865,840332.0,14990
1396.98,1.7535,840481.0,14826
1399.18,1.75571,841450.0,14768
1401.37,1.75718,842650.0,14739
1403.55,1.75929,843874.0,14689
1405.74,1.76233,845122.0,14608
1407.93,1.7663,846291.0,14495
1410.11,1.7696,847458.0,14405
1413.38,1.77249,848963.0,14335
1415.55,1.77397,849608.0,14297
1417.73,1.77661,850244.0,14221
1419.9,1.77898,850870.0,14154
1422.08,1.78464,851485.0,13981
1424.25,1.7849,852125.0,13983
1426.41,1.787796,852790.0,13901
1428.58,1.78945,852913.0,13850
1430.74,1.79128,853227.0,13797
1432.91,1.79318,853734.0,13745
1435.07,1.79206,853716.0,13780
1437.22,1.79487,853699.0,13691
1439.38,1.79452,854136.0,13709
1442.61,1.79919,853914.0,13559
1444.76,1.79803,853342.0,13586
1446.91,1.79796,852639.0,13577
1449.06,1.80074,852099.0,13482
1451.2,1.80219,851207.0,13423
1453.35,1.80145,849963.0,13426
1455.49,1.80267,848608.0,13367
1457.63,1.80406,846994.0,13299
1459.77,1.80451,845122.0,13256
1461.9,1.80779,843119.0,13125
1464.04,1.80464,840985.0,13187
1466.17,1.80728,838595.0,13070
1468.3,1.81192,836008.0,12891
1470.43,1.81274,833225.0,12824
1473.62,1.81258,828901.0,12762
1475.74,1.81807,825764.0,12554
1477.86,1.82113,822448.0,12416
1479.98,1.82371,818952.0,12290
1482.1,1.822276,815329.0,12276
1484.22,1.82535,811618.0,12134
1486.33,1.82335,807819.0,12133
1488.44,1.827104,803960.0,11971
1490.55,1.827274,800042.0,11908
1492.66,1.82511,795402.0,11898
1494.77,1.82469,790758.0,11840
1496.87,1.82228,786110.0,11836
1498.97,1.82069,781456.0,11809
1502.12,1.81889,774402.0,11751
1504.22,1.81753,769477.0,11713
1506.32,1.81835,764359.0,11613
1508.41,1.81678,758842.0,11571
1510.5,1.81527,753331.0,11527
1512.59,1.81619,748180.0,11424
1514.68,1.81431,742544.0,11387
1516.76,1.81183,736423.0,11358
1518.85,1.81233,730859.0,11259
1520.93,1.81439,725063.0,11117
1523.01,1.8148,719034.0,11014
1525.09,1.81785,712915.0,10844
1527.16,1.81685,706614.0,10773
1529.24,1.81959,700131.0,10607
1532.35,1.82097,690906.0,10434
1534.42,1.82227,684273.0,10303
1536.48,1.82291,677647.0,10188
1538.55,1.82138,671143.0,10126
1540.61,1.8244,664412.0,9955
1542.68,1.8266,657455.0,9801
1544.73,1.8267,650427.0,9694
1546.79,1.831087,643414.0,9493
1548.85,1.82831,636415.0,9450
1550.9,1.83107,629365.0,9286
1552.96,1.83915,621989.0,9008
1555.01,1.83553,614287.0,8971
1557.05,1.838155,607057.0,8812
1560.12,1.83961,596106.0,8624
1562.17,1.84177,588656.0,8474
1564.21,1.84071,581533.0,8392
1566.25,1.84,574087.0,8298
1568.28,1.84511,566317.0,8090
1570.32,1.84438,558933.0,7998
1572.35,1.84538,551257.0,7870
1574.39,1.846177,543288.0,7742
1576.42,1.85105,535868.0,7551
1578.44,1.84588,528262.0,7533
1580.47,1.849164,520470.0,7366
1582.49,1.85109,512634.0,7223
1584.52,1.85309,504807.0,7080
1587.55,1.85656,493901.0,6872
1589.56,1.85267,486006.0,6823
1591.58,1.85973,477977.0,6602
1593.59,1.85238,469815.0,6600
1595.6,1.85908,462446.0,6397
1597.61,1.86015,455033.0,6279
1599.62,1.85757,447577.0,6213
1601.63,1.86501,439338.0,5995
1603.63,1.86,431401.0,5955
1605.63,1.86228,423765.0,5819
1607.63,1.86412,415917.0,5687
1609.63,1.85494,408078.0,5699
1611.63,1.86218,400514.0,5501
1613.62,1.86237,392678.0,5391
1616.61,1.85864,380584.0,5270
1618.6,1.8691,372622.0,5037
1620.59,1.87006,364921.0,4922
1622.57,1.86038,357534.0,4931
1624.56,1.87042,350461.0,4723
1626.54,1.86989,343361.0,4633
1628.52,1.87312,336369.0,4505
1630.5,1.86967,329482.0,4448
1632.47,1.87298,322752.0,4324
1634.45,1.86808,316179.0,4284
1636.42,1.87171,309456.0,4158
1638.39,1.87193,302607.0,4064
1640.36,1.87438,295635.0,3948
1643.31,1.87473,285007.0,3803
1645.27,1.8767,277796.0,3690
1647.23,1.87352,270313.0,3617
1649.19,1.86863,262557.0,3553
1651.15,1.87194,254141.0,3413

***Lamp Ramp Up ADC***,
Timestamp(ms),ADC0,ADC1,ADC2,ADC3
3,256,442,1110,1090
7,470,462,1111,1088
11,491,482,1109,1090
15,512,502,1110,1089
19,534,523,1110,1090
22,558,545,1112,1089
26,583,569,1111,1089
30,609,594,1109,1090
34,635,619,1110,1088
38,663,645,1110,1089
41,693,673,1109,1089
45,723,703,1110,1088
49,757,734,1109,1089
53,790,767,1110,1090
57,826,801,1110,1089
60,865,836,1110,1088
64,904,876,1110,1088
68,948,916,1108,1088
72,993,958,1110,1088
76,1040,1003,1109,1089
80,1090,1049,1109,1087
83,1143,1100,1109,1088
87,1198,1153,1108,1087
91,1259,1208,1108,1087
95,1319,1267,1108,1088
99,1386,1327,1108,1087
102,1455,1392,1108,1087
106,1531,1464,1110,1088
110,1605,1532,1108,1089
114,1685,1606,1106,1088
118,1769,1685,1105,1087
121,1856,1768,1106,1088
125,1945,1853,1107,1086
129,2042,1942,1106,1086
133,2136,2035,1106,1087
137,2240,2128,1105,1086
140,2343,2228,1105,1086
144,2450,2329,1104,1085
148,2557,2432,1105,1084
152,2665,2539,1104,1085
156,2780,2645,1104,1084
159,2889,2756,1103,1083
163,2999,2864,1101,1083
167,3061,2967,1082,1083
171,3067,3053,1052,1074
175,3066,3072,1023,1045
178,3068,3073,998,1016
182,3065,3072,978,992
186,3067,3075,960,970
190,3068,3073,946,953
194,3068,3075,933,938
197,3066,3072,922,925
201,3068,3073,912,914
205,3065,3073,904,904
209,3067,3073,896,897
213,3067,3074,890,889
216,3068,3075,886,882
220,3067,3074,881,877
224,3068,3073,876,872
228,3067,3073,872,868
232,3067,3075,870,865
236,3067,3072,867,862
239,3068,3073,865,858
243,3066,3072,863,857
247,3067,3074,862,854
251,3069,3075,859,853
255,3067,3074,858,850
258,3068,3074,857,849
262,3066,3074,856,849
266,3067,3075,855,847
270,3066,3073,854,847
274,3068,3075,854,845
277,3067,3074,853,845
281,3067,3073,852,843
285,3067,3074,851,843
289,3068,3074,851,843
293,3067,3075,851,842
296,3068,3075,850,843
300,3067,3074,850,842
304,3069,3075,849,840
308,3069,3075,849,842
312,3068,3074,849,842
315,3068,3076,849,840
319,3067,3074,849,841
323,3068,3075,849,840
327,3068,3075,849,840
331,3068,3075,848,840
334,3068,3074,849,839
338,3068,3076,848,839
342,3067,3073,848,840
346,3067,3076,849,839
350,3067,3076,848,840
353,3067,3074,848,839
357,3069,3075,847,838
361,3067,3074,847,838
365,3068,3075,848,838
369,3068,3075,847,839
372,3067,3074,848,838
376,3068,3076,849,839
380,3067,3076,847,838
384,3067,3075,848,839
388,3068,3075,847,838
392,3068,3075,848,838
395,3069,3074,846,838
399,3067,3076,848,837
403,3067,3074,847,839
407,3068,3076,847,838
411,3067,3075,848,838
414,3068,3075,847,838
418,3068,3076,847,839
422,3067,3075,848,839
426,3070,3074,847,838
430,3067,3075,848,839
433,3068,3073,847,839
437,3069,3073,847,839
441,3067,3076,846,838
445,3065,3074,848,840
449,3069,3075,847,837
452,3067,3076,847,838
456,3068,3074,848,838
460,3069,3074,847,838
464,3069,3076,847,838
468,3069,3075,847,838
471,3068,3075,847,838
475,3067,3074,849,838
479,3068,3075,847,838
483,3067,3074,847,839
487,3069,3075,847,838

***Lamp ADC among repeated times***,
Timestamp(ms),ADC0,ADC1,ADC2,ADC3
994,2816,3074,848,837
1285,3069,3076,848,837
1581,3067,3074,848,837
1877,3069,3075,848,837
2173,3067,3075,847,837
2469,3067,3076,847,837
2765,3068,3073,848,837
3061,3068,3076,847,838
3357,3069,3075,848,837
3653,3070,3075,848,836
3949,3068,3076,847,837
4245,3069,3075,848,836
4541,3068,3074,848,837
4837,3067,3075,848,838
5133,3069,3073,848,838
5428,3070,3075,847,837